Folder: revolt-ai-app/public

Note: README.md
# ReVolt - Battery Analysis Platform

A comprehensive React-based platform for monitoring and analyzing battery fleet performance with advanced AI capabilities.

## Features

- **Battery Data Upload**: Support for CSV, XLS, and XLSX files
- **Manual Battery Entry**: Create battery passports with custom specifications
- **AI Agent Analysis**: Neural network-powered battery analysis
- **Real-time Monitoring**: Live battery status and performance tracking
- **Advanced Analytics**: Comprehensive battery health metrics
- **Company Management**: Multi-company support with role-based access

## Technologies

- **Frontend**: React 18, TypeScript, Vite
- **UI**: shadcn/ui, Tailwind CSS
- **Database**: Supabase
- **Authentication**: Supabase Auth
- **AI**: Custom neural network analysis

## Getting Started

### Prerequisites

- Node.js 18+ and npm
- Supabase account (for database and auth)

### Installation

```bash
# Clone the repository
git clone <repository-url>

# Navigate to project directory
cd revolt-ai-app

# Install dependencies
npm install

# Start development server
npm run dev
```

### Environment Setup

Create a `.env` file with your Supabase credentials:

```env
VITE_SUPABASE_URL=your_supabase_url
VITE_SUPABASE_ANON_KEY=your_supabase_anon_key
```

## Development

```bash
# Start development server
npm run dev

# Build for production
npm run build

# Preview production build
npm run preview
```

## Project Structure

```
src/
├── components/     # Reusable UI components
├── pages/         # Page components
├── services/      # API and business logic
├── contexts/      # React contexts
├── types/         # TypeScript type definitions
└── integrations/  # External service integrations
```

## Contributing

1. Fork the repository
2. Create a feature branch
3. Make your changes
4. Submit a pull request

## License

This project is proprietary software.

File: sample-battery-data.csv
Cycle,Step,Voltage_V,Current_A,Capacity_Ah,Temperature_C,Time_s
1,1,3.2,0.5,0.0,25.2,0
1,2,3.65,0.5,0.25,25.8,1800
1,3,4.2,0.5,0.5,26.1,3600
1,4,4.2,0.0,0.5,25.9,3660
1,5,3.8,-0.5,0.45,25.5,5460
1,6,3.2,-0.5,0.0,25.2,7260
2,1,3.2,0.5,0.0,25.3,7320
2,2,3.64,0.5,0.248,25.9,9120
2,3,4.2,0.5,0.496,26.2,10920
2,4,4.2,0.0,0.496,25.8,10980
2,5,3.8,-0.5,0.446,25.6,12780
2,6,3.2,-0.5,0.0,25.3,14580
3,1,3.2,0.5,0.0,25.1,14640
3,2,3.63,0.5,0.246,25.7,16440
3,3,4.2,0.5,0.492,26.0,18240
3,4,4.2,0.0,0.492,25.9,18300
3,5,3.8,-0.5,0.442,25.4,20100
3,6,3.2,-0.5,0.0,25.1,21900